Folder: Exmet2/01_XRD/data

File: xrd_bb_01 copy.ras
20.0000 4885 1.0000
20.2700 4778 1.0000
20.5400 4637 1.0000
20.8100 4681 1.0000
21.0800 4839 1.0000
21.3500 4681 1.0000
21.6200 4793 1.0000
21.8900 4807 1.0000
22.1600 4846 1.0000
22.4300 4780 1.0000
22.7000 4844 1.0000
22.9700 4925 1.0000
23.2400 4931 1.0000
23.5100 4760 1.0000
23.7800 4813 1.0000
24.0500 4800 1.0000
24.3200 4738 1.0000
24.5900 4852 1.0000
24.8600 4864 1.0000
25.1300 4855 1.0000
25.4000 4894 1.0000
25.6700 4782 1.0000
25.9400 4815 1.0000
26.2100 4788 1.0000
26.4800 4833 1.0000
26.7500 4798 1.0000
27.0200 4732 1.0000
27.2900 4777 1.0000
27.5600 4793 1.0000
27.8300 4775 1.0000
28.1000 4712 1.0000
28.3700 4769 1.0000
28.6400 4744 1.0000
28.9100 4802 1.0000
29.1800 4823 1.0000
29.4500 4859 1.0000
29.7200 4825 1.0000
29.9900 4790 1.0000
30.2600 4874 1.0000
30.5300 4825 1.0000
30.8000 4793 1.0000
31.0700 4843 1.0000
31.3400 4723 1.0000
31.6100 4870 1.0000
31.8800 4731 1.0000
32.1500 4779 1.0000
32.4200 4862 1.0000
32.6900 4824 1.0000
32.9600 4824 1.0000
33.2300 4739 1.0000
33.5000 4771 1.0000
33.7700 4765 1.0000
34.0400 4595 1.0000
34.3100 4696 1.0000
34.5800 4923 1.0000
34.8500 4850 1.0000
35.1200 4889 1.0000
35.3900 4850 1.0000
35.6600 4732 1.0000
35.9300 4872 1.0000
36.2000 5207 1.0000
36.4700 4956 1.0000
36.7400 4788 1.0000
37.0100 4748 1.0000
37.2800 4781 1.0000
37.5500 4920 1.0000
37.8200 4835 1.0000
38.0900 4824 1.0000
38.3600 4798 1.0000
38.6300 4978 1.0000
38.9000 4773 1.0000
39.1700 4799 1.0000
39.4400 4827 1.0000
39.7100 4761 1.0000
39.9800 4826 1.0000
40.2500 4811 1.0000
40.5200 4879 1.0000
40.7900 4868 1.0000
41.0600 4847 1.0000
41.3300 4869 1.0000
41.6000 4996 1.0000
41.8700 4990 1.0000
42.1400 5205 1.0000
42.4100 5163 1.0000
42.6800 5655 1.0000
42.9500 12385 1.0000
43.2200 31082 1.0000
43.4900 6251 1.0000
43.7600 5279 1.0000
44.0300 5066 1.0000
44.3000 4921 1.0000
44.5700 5026 1.0000
44.8400 4993 1.0000
45.1100 5859 1.0000
45.3800 5151 1.0000
45.6500 4837 1.0000
45.9200 4913 1.0000
46.1900 5004 1.0000
46.4600 4933 1.0000
46.7300 4791 1.0000
47.0000 4934 1.0000
47.2700 4892 1.0000
47.5400 4969 1.0000
47.8100 4913 1.0000
48.0800 4962 1.0000
48.3500 5036 1.0000
48.6200 5281 1.0000
48.8900 5312 1.0000
49.1600 5360 1.0000
49.4300 5546 1.0000
49.7000 6041 1.0000
49.9700 10211 1.0000
50.2400 83682 1.0000
50.5100 25424 1.0000
50.7800 6816 1.0000
51.0500 5634 1.0000
51.3200 5423 1.0000
51.5900 5059 1.0000
51.8600 5107 1.0000
52.1300 5044 1.0000
52.4000 4970 1.0000
52.6700 4917 1.0000
52.9400 4894 1.0000
53.2100 4928 1.0000
53.4800 4807 1.0000
53.7500 4922 1.0000
54.0200 4823 1.0000
54.2900 4881 1.0000
54.5600 4885 1.0000
54.8300 4840 1.0000
55.1000 4801 1.0000
55.3700 4896 1.0000
55.6400 4840 1.0000
55.9100 4826 1.0000
56.1800 4783 1.0000
56.4500 4700 1.0000
56.7200 4851 1.0000
56.9900 4768 1.0000
57.2600 4956 1.0000
57.5300 4709 1.0000
57.8000 4938 1.0000
58.0700 4781 1.0000
58.3400 4787 1.0000
58.6100 4692 1.0000
58.8800 4924 1.0000
59.1500 4854 1.0000
59.4200 4808 1.0000
59.6900 4727 1.0000
59.9600 4748 1.0000
60.2300 4778 1.0000
60.5000 4894 1.0000
60.7700 4768 1.0000
61.0400 4731 1.0000
61.3100 4745 1.0000
61.5800 4846 1.0000
61.8500 4739 1.0000
62.1200 4795 1.0000
62.3900 4966 1.0000
62.6600 4818 1.0000
62.9300 4845 1.0000
63.2000 4734 1.0000
63.4700 4776 1.0000
63.7400 4762 1.0000
64.0100 4793 1.0000
64.2800 4895 1.0000
64.5500 4860 1.0000
64.8200 4757 1.0000
65.0900 4838 1.0000
65.3600 4930 1.0000
65.6300 4930 1.0000
65.9000 5023 1.0000
66.1700 4872 1.0000
66.4400 4877 1.0000
66.7100 4826 1.0000
66.9800 4860 1.0000
67.2500 4844 1.0000
67.5200 4800 1.0000
67.7900 4861 1.0000
68.0600 4697 1.0000
68.3300 4840 1.0000
68.6000 4949 1.0000
68.8700 4880 1.0000
69.1400 4757 1.0000
69.4100 4844 1.0000
69.6800 4867 1.0000
69.9500 4773 1.0000
70.2200 4848 1.0000
70.4900 4944 1.0000
70.7600 4899 1.0000
71.0300 4966 1.0000
71.3000 5043 1.0000
71.5700 4945 1.0000
71.8400 4919 1.0000
72.1100 5164 1.0000
72.3800 5139 1.0000
72.6500 4992 1.0000
72.9200 5208 1.0000
73.1900 5137 1.0000
73.4600 5702 1.0000
73.7300 8252 1.0000
74.0000 39629 1.0000
74.2700 16323 1.0000
74.5400 6015 1.0000
74.8100 5285 1.0000
75.0800 5064 1.0000
75.3500 5080 1.0000
75.6200 4878 1.0000
75.8900 4958 1.0000
76.1600 5095 1.0000
76.4300 5059 1.0000
76.7000 4965 1.0000
76.9700 4975 1.0000
77.2400 4894 1.0000
77.5100 4962 1.0000
77.7800 4976 1.0000
78.0500 4939 1.0000
78.3200 5059 1.0000
78.5900 4991 1.0000
78.8600 5012 1.0000
79.1300 5021 1.0000
79.4000 4928 1.0000
79.6700 4951 1.0000
79.9400 4813 1.0000
80.2100 4944 1.0000
80.4800 4986 1.0000
80.7500 4979 1.0000
81.0200 4924 1.0000
81.2900 5095 1.0000
81.5600 4994 1.0000
81.8300 4962 1.0000
82.1000 4842 1.0000
82.3700 5112 1.0000
82.6400 4934 1.0000
82.9100 5020 1.0000
83.1800 4946 1.0000
83.4500 5050 1.0000
83.7200 4883 1.0000
83.9900 4943 1.0000
84.2600 4815 1.0000
84.5300 4881 1.0000
84.8000 4932 1.0000
85.0700 5056 1.0000
85.3400 5117 1.0000
85.6100 4945 1.0000
85.8800 4975 1.0000
86.1500 4959 1.0000
86.4200 5082 1.0000
86.6900 4937 1.0000
86.9600 4986 1.0000
87.2300 4997 1.0000
87.5000 5046 1.0000
87.7700 5050 1.0000
88.0400 5046 1.0000
88.3100 5063 1.0000
88.5800 5072 1.0000
88.8500 5173 1.0000
89.1200 5491 1.0000
89.3900 6275 1.0000
89.6600 13726 1.0000
89.9300 16981 1.0000
90.2000 10856 1.0000
90.4700 5987 1.0000
90.7400 5202 1.0000
91.0100 5148 1.0000
91.2800 5124 1.0000
91.5500 5029 1.0000
91.8200 5033 1.0000
92.0900 5076 1.0000
92.3600 5023 1.0000
92.6300 4923 1.0000
92.9000 4944 1.0000
93.1700 5016 1.0000
93.4400 5022 1.0000
93.7100 4980 1.0000
93.9800 5001 1.0000
94.2500 5118 1.0000
94.5200 5014 1.0000
94.7900 5319 1.0000
95.0600 6376 1.0000
95.3300 5865 1.0000
95.6000 5169 1.0000
95.8700 4956 1.0000
96.1400 4987 1.0000
96.4100 5006 1.0000
96.6800 5076 1.0000
96.9500 5024 1.0000
97.2200 4916 1.0000
97.4900 4946 1.0000
97.7600 4873 1.0000
98.0300 5030 1.0000
98.3000 4926 1.0000
98.5700 5017 1.0000
98.8400 4926 1.0000
99.1100 4998 1.0000
99.3800 5049 1.0000
99.6500 4970 1.0000
99.9200 4905 1.0000
100.0000 5017 1.0000